intro_text,audio,thisN,thisTrialN,thisRepN,key_resp_3.keys,key_resp_3.rt,key_resp_3.duration,key_resp.keys,key_resp.rt,key_resp.duration,textbox.text,key_resp_2.keys,key_resp_2.rt,key_resp_2.duration,audio5_pos,audio5_neg,trial_start_key.keys,trial_start_key.rt,trial_start_key.duration,textbox_2.text,trial_key.keys,trial_key.rt,trial_key.duration,trials_2.thisRepN,trials_2.thisTrialN,trials_2.thisN,trials_2.thisIndex,trials_3.thisRepN,trials_3.thisTrialN,trials_3.thisN,trials_3.thisIndex,trials.thisRepN,trials.thisTrialN,trials.thisN,trials.thisIndex,thisRow.t,notes,instructions.started,intro_text.started,intro_key.started,instructions.stopped,intro_key.keys,intro_key.rt,intro_key.duration,practice_intro.started,prac_intro.started,key_resp_3.started,practice_intro.stopped,trials_2.key_resp_3.keys,trials_2.key_resp_3.rt,trials_2.key_resp_3.duration,practice_start.started,text_2.started,key_resp.started,practice_start.stopped,trials_2.key_resp.keys,trials_2.key_resp.rt,trials_2.key_resp.duration,practice.started,practice_sentence.started,practice_sentence.stopped,textbox.started,key_resp_2.started,text_3.started,practice.stopped,trials_2.textbox.text,trials_2.key_resp_2.keys,trials_2.key_resp_2.rt,trials_2.key_resp_2.duration,move_to_trial.started,text_4.started,key_resp_4.started,move_to_trial.stopped,key_resp_4.keys,key_resp_4.rt,key_resp_4.duration,row_setup_code.started,row_setup_code.stopped,trial_start.started,trial_start_text.started,trial_start_key.started,trial_start.stopped,trials.trial_start_key.keys,trials.trial_start_key.rt,trials.trial_start_key.duration,trial.started,sentence.started,sentence.stopped,textbox_2.started,trial_key.started,trial.stopped,trials.textbox_2.text,trials.trial_key.keys,trials.trial_key.rt,trials.trial_key.duration,rest.started,rest_text.started,rest.stopped,rest_text.stopped,end.started,text_5.started,end.stopped,participant,session,date,expName,psychopyVersion,frameRate,expStart,
,,,,,,,,,,,,,,,,,,,,,,,,,,,,,,,,,,,,,,0.038906041998416185,0.07928616699791746,0.07928616699791746,2.2760118330006662,return,2.1738140840025153,None,,,,,,,,,,,,,,,,,,,,,,,,,,,,,,,,,,,,,,,,,,,,,,,,,,,,,,,,,,,99,2,2024-12-16_09h24.36.671,intelligibility_test,2024.2.2,122.57424346341462,2024-12-16 09h24.45.839396 -0500,
We will first practice listening to a sentence without noise. Press return to start the practice round.,soundfiles/NU1109_1107_talker01.wav,0,0,0,return,7.173748167002486,None,space,7.109114292001323,None, the furry bear,return,3.4773703749997367,None,,,,,,,,,,0,0,0,0,,,,,,,,,2.3446739169994544,,,,,,,,,2.3325761249980133,2.3446739169994544,2.3446739169994544,9.52282650000052,return,7.173748167002486,None,9.522873374997289,9.541819499998383,9.541819499998383,16.65449420799996,space,7.109114292001323,None,16.658658374999504,0.004158165997068863,2.1546984999986307,18.822629667,18.822629667,18.822629667,22.30524095799774, the furry bear,return,3.4773703749997367,None,,,,,,,,,,,,,,,,,,,,,,,,,,,,,,,,,,99,2,2024-12-16_09h24.36.671,intelligibility_test,2024.2.2,122.57424346341462,2024-12-16 09h24.45.839396 -0500,
"Great! Now we will practice listening to a sentence with noise. This may be more challenging, so just try your best!",soundfiles/NU1109_1082_talker01_SNR5.wav,1,1,0,return,16.544337791001453,None,space,3.2860982499987585,None,the wind,return,1.3345089590002317,None,,,,,,,,,,0,1,1,1,,,,,,,,,22.356738499998755,,,,,,,,,22.34839779200047,22.356738499998755,22.356738499998755,38.90487770799882,return,16.544337791001453,None,38.90491566699711,38.915664707998076,38.915664707998076,42.206227457998466,space,3.2860982499987585,None,42.2132191669989,0.006975500000407919,3.8487537920009345,46.19919666699934,46.19919666699934,46.19919666699934,47.54016179199971,the wind,return,1.3345089590002317,None,,,,,,,,,,,,,,,,,,,,,,,,,,,,,,,,,,99,2,2024-12-16_09h24.36.671,intelligibility_test,2024.2.2,122.57424346341462,2024-12-16 09h24.45.839396 -0500,
,,,,,,,,,,,,,,,,,,,,,,,,,,,,,,,,,,,,,,,,,,,,,,,,,,,,,,,,,,,,,,,,,,,,,,47.54025083299712,47.54787424999813,47.54787424999813,49.12203929200041,return,1.5711869170008868,None,,,,,,,,,,,,,,,,,,,,,,,,,,,99,2,2024-12-16_09h24.36.671,intelligibility_test,2024.2.2,122.57424346341462,2024-12-16 09h24.45.839396 -0500,
,,0,0,0,,,,,,,,,,,soundfiles/NU1109_0326_talker01_SNR5.wav,soundfiles/NU1109_0326_talker01_SNR-5.wav,space,1.7450147499985178,None, the dog,return,1.1523614590005309,None,,,,,0,0,0,0,0,0,0,15,49.15526174999832,,,,,,,,,,,,,,,,,,,,,,,,,,,,,,,,,,,,,,,,,49.13085487499848,49.13112629199895,49.13962645799984,49.15526174999832,49.15526174999832,50.90409533300044,space,1.7450147499985178,None,50.909520582998084,50.91998058366541,54.33621045799737,54.44205766699815,54.44205766699815,55.59957299999951, the dog,return,1.1523614590005309,None,,,,,,,,99,2,2024-12-16_09h24.36.671,intelligibility_test,2024.2.2,122.57424346341462,2024-12-16 09h24.45.839396 -0500,
,,1,1,0,,,,,,,,,,,soundfiles/NU1109_0227_talker01_SNR5.wav,soundfiles/NU1109_0227_talker01_SNR-5.wav,space,0.7500930420028453,None, the rising waves,return,1.8041954999971495,None,,,,,0,0,0,0,0,1,1,16,55.60400195799957,,,,,,,,,,,,,,,,,,,,,,,,,,,,,,,,,,,,,,,,,,,55.599700708000455,55.60400195799957,55.60400195799957,56.35751312499997,space,0.7500930420028453,None,56.36401012499846,56.37329191666528,59.95992995800043,60.08049475000007,60.08049475000007,61.888905207997595, the rising waves,return,1.8041954999971495,None,,,,,,,,99,2,2024-12-16_09h24.36.671,intelligibility_test,2024.2.2,122.57424346341462,2024-12-16 09h24.45.839396 -0500,
,,2,2,0,,,,,,,,,,,soundfiles/NU1109_0059_talker01_SNR5.wav,soundfiles/NU1109_0059_talker01_SNR-5.wav,space,1.5869470830002683,None, the black cat,return,4.360988500000531,None,,,,,0,0,0,0,0,2,2,17,61.89753912499873,,,,,,,,,,,,,,,,,,,,,,,,,,,,,,,,,,,,,,,,,,,61.889070291999815,61.89753912499873,61.89753912499873,63.48907204199713,space,1.5869470830002683,None,63.49292887499905,63.50488791666454,66.74340825000036,66.8252008749987,66.8252008749987,71.18868300000031, the black cat,return,4.360988500000531,None,,,,,,,,99,2,2024-12-16_09h24.36.671,intelligibility_test,2024.2.2,122.57424346341462,2024-12-16 09h24.45.839396 -0500,
,,3,3,0,,,,,,,,,,,soundfiles/NU1109_0219_talker01_SNR5.wav,soundfiles/NU1109_0219_talker01_SNR-5.wav,space,1.4933693340026366,None, the helpful,return,1.336772499998915,None,,,,,0,0,0,0,0,3,3,8,71.19751287499821,,,,,,,,,,,,,,,,,,,,,,,,,,,,,,,,,,,,,,,,,,,71.18883258300048,71.19751287499821,71.19751287499821,72.69367658299961,space,1.4933693340026366,None,72.69807104199936,72.707408708666,75.86923000000024,75.95326324999769,75.95326324999769,77.2999689169992, the helpful,return,1.336772499998915,None,,,,,,,,99,2,2024-12-16_09h24.36.671,intelligibility_test,2024.2.2,122.57424346341462,2024-12-16 09h24.45.839396 -0500,
,,4,4,0,,,,,,,,,,,soundfiles/NU1109_0146_talker01_SNR5.wav,soundfiles/NU1109_0146_talker01_SNR-5.wav,space,0.5444989589996112,None, the skilled,return,2.3790025000016612,None,,,,,0,0,0,0,0,4,4,0,77.30679262500053,,,,,,,,,,,,,,,,,,,,,,,,,,,,,,,,,,,,,,,,,,,77.30010099999708,77.30679262500053,77.30679262500053,77.85522204199879,space,0.5444989589996112,None,77.86121362499762,77.87109070866451,81.70787704199756,81.84775658299986,81.84775658299986,84.23296883299918, the skilled,return,2.3790025000016612,None,,,,,,,,99,2,2024-12-16_09h24.36.671,intelligibility_test,2024.2.2,122.57424346341462,2024-12-16 09h24.45.839396 -0500,
,,5,5,0,,,,,,,,,,,soundfiles/NU1109_0179_talker01_SNR5.wav,soundfiles/NU1109_0179_talker01_SNR-5.wav,space,0.4284609999995155,None, from here on I'm stopping typing,return,3.8466538329994364,None,,,,,0,0,0,0,0,5,5,19,84.23979241699999,,,,,,,,,,,,,,,,,,,,,,,,,,,,,,,,,,,,,,,,,,,84.23310937499991,84.23979241699999,84.23979241699999,84.67102387499835,space,0.4284609999995155,None,84.67600587500056,84.68680416666417,88.21491483299906,88.32272479200037,88.32272479200037,92.1716175420006, from here on I'm stopping typing,return,3.8466538329994364,None,,,,,,,,99,2,2024-12-16_09h24.36.671,intelligibility_test,2024.2.2,122.57424346341462,2024-12-16 09h24.45.839396 -0500,
,,6,6,0,,,,,,,,,,,soundfiles/NU1109_0255_talker01_SNR5.wav,soundfiles/NU1109_0255_talker01_SNR-5.wav,space,1.8523557909975352,None, ,return,0.11148854199927882,None,,,,,0,0,0,0,0,6,6,13,92.18174725000063,,,,,,,,,,,,,,,,,,,,,,,,,,,,,,,,,,,,,,,,,,,92.17172945799757,92.18174725000063,92.18174725000063,94.03501445800066,space,1.8523557909975352,None,94.04115416700006,94.05059274966722,98.04206008300025,98.19380275000003,98.19380275000003,98.31565000000046, ,return,0.11148854199927882,None,,,,,,,,99,2,2024-12-16_09h24.36.671,intelligibility_test,2024.2.2,122.57424346341462,2024-12-16 09h24.45.839396 -0500,
,,7,7,0,,,,,,,,,,,soundfiles/NU1109_0329_talker01_SNR5.wav,soundfiles/NU1109_0329_talker01_SNR-5.wav,space,0.6327364999997371,None, ,return,0.5782511249999516,None,,,,,0,0,0,0,0,7,7,5,98.32173200000034,,,,,,,,,,,,,,,,,,,,,,,,,,,,,,,,,,,,,,,,,,,98.31576420800047,98.32173200000034,98.32173200000034,98.95823874999769,space,0.6327364999997371,None,98.96167516700007,98.97309991666431,102.13900749999812,102.21555420799996,102.21555420799996,102.79987799999799, ,return,0.5782511249999516,None,,,,,,,,99,2,2024-12-16_09h24.36.671,intelligibility_test,2024.2.2,122.57424346341462,2024-12-16 09h24.45.839396 -0500,
,,8,8,0,,,,,,,,,,,soundfiles/NU1109_0183_talker01_SNR5.wav,soundfiles/NU1109_0183_talker01_SNR-5.wav,space,0.4360396670017508,None," 
 ",return,1.0448788749999949,None,,,,,0,0,0,0,0,8,8,10,102.8050100420005,,,,,,,,,,,,,,,,,,,,,,,,,,,,,,,,,,,,,,,,,,,102.80003733299964,102.8050100420005,102.8050100420005,103.24978920799913,space,0.4360396670017508,None,103.2538292499994,103.26551266666526,106.34883716699915,106.42264758300007,106.42264758300007,107.47209524999926," 
 ",return,1.0448788749999949,None,,,,,,,,99,2,2024-12-16_09h24.36.671,intelligibility_test,2024.2.2,122.57424346341462,2024-12-16 09h24.45.839396 -0500,
,,9,9,0,,,,,,,,,,,soundfiles/NU1109_0287_talker01_SNR5.wav,soundfiles/NU1109_0287_talker01_SNR-5.wav,space,0.2801991249980347,None, ,return,0.19547720799891977,None,,,,,0,0,0,0,0,9,9,11,107.48241712500021,,,,,,,,,,,,,,,,,,,,,,,,,,,,,,,,,,,,,,,,,,,107.47222629200041,107.48241712500021,107.48241712500021,107.76647633299945,space,0.2801991249980347,None,107.76982570799737,107.78230545866633,110.8741165829997,110.96640670799752,110.96640670799752,111.16659629199785, ,return,0.19547720799891977,None,,,,,,,,99,2,2024-12-16_09h24.36.671,intelligibility_test,2024.2.2,122.57424346341462,2024-12-16 09h24.45.839396 -0500,
,,10,10,0,,,,,,,,,,,soundfiles/NU1109_0049_talker01_SNR5.wav,soundfiles/NU1109_0049_talker01_SNR-5.wav,space,0.4297433749998163,None, ,return,0.15765745799944852,None,,,,,0,0,0,0,0,10,10,12,111.17140524999922,,,,,,,,,,,,,,,,,,,,,,,,,,,,,,,,,,,,,,,,,,,111.16674508299911,111.17140524999922,111.17140524999922,111.60441629200068,space,0.4297433749998163,None,111.60881533299835,111.62008224966509,114.98881233299835,115.09426691699991,115.09426691699991,115.25842641700001, ,return,0.15765745799944852,None,,,,,,,,99,2,2024-12-16_09h24.36.671,intelligibility_test,2024.2.2,122.57424346341462,2024-12-16 09h24.45.839396 -0500,
,,11,11,0,,,,,,,,,,,soundfiles/NU1109_0310_talker01_SNR5.wav,soundfiles/NU1109_0310_talker01_SNR-5.wav,space,0.423949291001918,None, ,return,0.24719787499998347,None,,,,,0,0,0,0,0,11,11,3,115.28205391699885,,,,,,,,,,,,,,,,,,,,,,,,,,,,,,,,,,,,,,,,,,,115.2585423749988,115.28205391699885,115.28205391699885,115.70873408300031,space,0.423949291001918,None,115.71400104199711,115.72282945866415,119.43536458299786,119.56211383299888,119.56211383299888,119.81535466700007, ,return,0.24719787499998347,None,,,,,,,,99,2,2024-12-16_09h24.36.671,intelligibility_test,2024.2.2,122.57424346341462,2024-12-16 09h24.45.839396 -0500,
,,12,12,0,,,,,,,,,,,soundfiles/NU1109_0387_talker01_SNR5.wav,soundfiles/NU1109_0387_talker01_SNR-5.wav,space,1.6841636249992007,None, ,return,1.0622519170028681,None,,,,,0,0,0,0,0,12,12,9,119.8211315419976,,,,,,,,,,,,,,,,,,,,,,,,,,,,,,,,,,,,,,,,,,,119.815494167,119.8211315419976,119.8211315419976,121.5173797919997,space,1.6841636249992007,None,121.5213645829972,121.5322528336658,124.69899008299762,124.77426312500029,124.77426312500029,125.83951129200068, ,return,1.0622519170028681,None,,,,,,,,99,2,2024-12-16_09h24.36.671,intelligibility_test,2024.2.2,122.57424346341462,2024-12-16 09h24.45.839396 -0500,
,,13,13,0,,,,,,,,,,,soundfiles/NU1109_0319_talker01_SNR5.wav,soundfiles/NU1109_0319_talker01_SNR-5.wav,space,0.45526054199945065,None, ,return,0.8523934170007124,None,,,,,0,0,0,0,0,13,13,2,125.84760458299934,,,,,,,,,,,,,,,,,,,,,,,,,,,,,,,,,,,,,,,,,,,125.839651667,125.84760458299934,125.84760458299934,126.30609358299989,space,0.45526054199945065,None,126.31042095799785,126.32196595866505,129.30723699999726,129.37376633299937,129.37376633299937,130.23340916699817, ,return,0.8523934170007124,None,,,,,,,,99,2,2024-12-16_09h24.36.671,intelligibility_test,2024.2.2,122.57424346341462,2024-12-16 09h24.45.839396 -0500,
,,14,14,0,,,,,,,,,,,soundfiles/NU1109_0212_talker01_SNR5.wav,soundfiles/NU1109_0212_talker01_SNR-5.wav,space,0.4342787919995317,None,  ,return,0.4252485830002115,None,,,,,0,0,0,0,0,14,14,7,130.2403509579999,,,,,,,,,,,,,,,,,,,,,,,,,,,,,,,,,,,,,,,,,,,130.23355724999783,130.2403509579999,130.2403509579999,130.68313387499802,space,0.4342787919995317,None,130.6870628329998,130.6989693336657,134.17697779199807,134.2808659580005,134.2808659580005,134.71702220799853,  ,return,0.4252485830002115,None,,,,,,,,99,2,2024-12-16_09h24.36.671,intelligibility_test,2024.2.2,122.57424346341462,2024-12-16 09h24.45.839396 -0500,
,,15,15,0,,,,,,,,,,,soundfiles/NU1109_0155_talker01_SNR5.wav,soundfiles/NU1109_0155_talker01_SNR-5.wav,space,0.7340105839975877,None, ,return,1.0582796249982493,None,,,,,0,0,0,0,0,15,15,18,134.7238471669989,,,,,,,,,,,,,,,,,,,,,,,,,,,,,,,,,,,,,,,,,,,134.71716141700017,134.7238471669989,134.7238471669989,135.45967799999926,space,0.7340105839975877,None,135.46377224999742,135.47538749966432,138.76333129200066,138.85921945799782,138.85921945799782,139.92312474999926, ,return,1.0582796249982493,None,,,,,,,,99,2,2024-12-16_09h24.36.671,intelligibility_test,2024.2.2,122.57424346341462,2024-12-16 09h24.45.839396 -0500,
,,16,16,0,,,,,,,,,,,soundfiles/NU1109_0097_talker01_SNR5.wav,soundfiles/NU1109_0097_talker01_SNR-5.wav,space,0.34325641699979315,None, ,return,0.5578651249998074,None,,,,,0,0,0,0,0,16,16,6,139.9308077079986,,,,,,,,,,,,,,,,,,,,,,,,,,,,,,,,,,,,,,,,,,,139.92324024999834,139.9308077079986,139.9308077079986,140.28128312499757,space,0.34325641699979315,None,140.28458825000052,140.29761549966523,143.32875395799783,143.4039504579996,143.4039504579996,143.96647112500068, ,return,0.5578651249998074,None,,,,,,,,99,2,2024-12-16_09h24.36.671,intelligibility_test,2024.2.2,122.57424346341462,2024-12-16 09h24.45.839396 -0500,
,,17,17,0,,,,,,,,,,,soundfiles/NU1109_0040_talker01_SNR5.wav,soundfiles/NU1109_0040_talker01_SNR-5.wav,space,0.5351537089991325,None, ,return,0.5009878749988275,None,,,,,0,0,0,0,0,17,17,14,143.97108616699916,,,,,,,,,,,,,,,,,,,,,,,,,,,,,,,,,,,,,,,,,,,143.96663091699884,143.97108616699916,143.97108616699916,144.51642645799802,space,0.5351537089991325,None,144.51998212499893,144.5322572496664,147.78738112499923,147.8770916249996,147.8770916249996,148.38211341699935, ,return,0.5009878749988275,None,,,,,,,,99,2,2024-12-16_09h24.36.671,intelligibility_test,2024.2.2,122.57424346341462,2024-12-16 09h24.45.839396 -0500,
,,18,18,0,,,,,,,,,,,soundfiles/NU1109_0344_talker01_SNR5.wav,soundfiles/NU1109_0344_talker01_SNR-5.wav,space,0.31366379099927144,None, ,return,0.49752216699926066,None,,,,,0,0,0,0,0,18,18,4,148.38711570799933,,,,,,,,,,,,,,,,,,,,,,,,,,,,,,,,,,,,,,,,,,,148.38227341699894,148.38711570799933,148.38711570799933,148.7048669169999,space,0.31366379099927144,None,148.7082608749988,148.7206894586673,152.1220300419991,152.22379799999908,152.22379799999908,152.72250816700034, ,return,0.49752216699926066,None,,,,,,,,99,2,2024-12-16_09h24.36.671,intelligibility_test,2024.2.2,122.57424346341462,2024-12-16 09h24.45.839396 -0500,
,,19,19,0,,,,,,,,,,,soundfiles/NU1109_0261_talker01_SNR5.wav,soundfiles/NU1109_0261_talker01_SNR-5.wav,space,0.3891652919992339,None, ,return,0.5960295000004407,None,,,,,0,0,0,0,0,19,19,1,152.73243570799968,,,,,,,,,,,,,,,,,,,,,,,,,,,,,,,,,,,,,,,,,,,152.7226687500006,152.73243570799968,152.73243570799968,153.12629620799999,space,0.3891652919992339,None,153.13073574999726,153.14026120866427,156.68210158299917,156.7974879579997,156.7974879579997,157.3998095829993, ,return,0.5960295000004407,None,,,,,,,,99,2,2024-12-16_09h24.36.671,intelligibility_test,2024.2.2,122.57424346341462,2024-12-16 09h24.45.839396 -0500,
,,0,0,0,,,,,,,,,,,soundfiles/NU1109_0361_talker01_SNR5.wav,soundfiles/NU1109_0361_talker01_SNR-5.wav,space,1.6843209580001712,None, ,return,0.2897769170012907,None,,,,,0,1,1,1,0,0,0,19,217.4172907079992,,,,,,,,,,,,,,,,,,,,,,,,,,,,,,,,,,,,,,,,,217.40437404199838,217.4045540829975,217.41150254199965,217.4172907079992,217.4172907079992,219.10546279199843,space,1.6843209580001712,None,219.10865583299892,219.12125558366486,222.15307720800047,222.22295345800012,222.22295345800012,222.51779858299778, ,return,0.2897769170012907,None,157.4056624579971,157.4206356249997,217.4042883330003,,,,,99,2,2024-12-16_09h24.36.671,intelligibility_test,2024.2.2,122.57424346341462,2024-12-16 09h24.45.839396 -0500,
,,1,1,0,,,,,,,,,,,soundfiles/NU1109_0021_talker01_SNR5.wav,soundfiles/NU1109_0021_talker01_SNR-5.wav,space,2.9963845830025093,None, ,return,0.1911042499996256,None,,,,,0,1,1,1,0,1,1,1,222.5245445420005,,,,,,,,,,,,,,,,,,,,,,,,,,,,,,,,,,,,,,,,,,,222.51809033300015,222.5245445420005,222.5245445420005,225.52250291699966,space,2.9963845830025093,None,225.526421999999,225.53831466666477,229.16374274999907,229.2922555829973,229.2922555829973,229.48740545799956, ,return,0.1911042499996256,None,,,,,,,,99,2,2024-12-16_09h24.36.671,intelligibility_test,2024.2.2,122.57424346341462,2024-12-16 09h24.45.839396 -0500,
,,2,2,0,,,,,,,,,,,soundfiles/NU1109_0297_talker01_SNR5.wav,soundfiles/NU1109_0297_talker01_SNR-5.wav,space,0.5029892919992562,None, ,return,0.7282727079982578,None,,,,,0,1,1,1,0,2,2,12,229.49785620799958,,,,,,,,,,,,,,,,,,,,,,,,,,,,,,,,,,,,,,,,,,,229.48752616699858,229.49785620799958,229.49785620799958,230.006248624999,space,0.5029892919992562,None,230.00956020800004,230.021420624664,232.89848229199924,232.9601290419996,232.9601290419996,233.6987377080004, ,return,0.7282727079982578,None,,,,,,,,99,2,2024-12-16_09h24.36.671,intelligibility_test,2024.2.2,122.57424346341462,2024-12-16 09h24.45.839396 -0500,
,,3,3,0,,,,,,,,,,,soundfiles/NU1109_0377_talker01_SNR5.wav,soundfiles/NU1109_0377_talker01_SNR-5.wav,space,0.4244587920002232,None, ,return,0.5120986670008278,None,,,,,0,1,1,1,0,3,3,17,233.70452300000034,,,,,,,,,,,,,,,,,,,,,,,,,,,,,,,,,,,,,,,,,,,233.69887308299803,233.70452300000034,233.70452300000034,234.1320886249996,space,0.4244587920002232,None,234.13578987499932,234.14784354166503,237.4466176249989,237.54382858299869,237.54382858299869,238.06552233299954, ,return,0.5120986670008278,None,,,,,,,,99,2,2024-12-16_09h24.36.671,intelligibility_test,2024.2.2,122.57424346341462,2024-12-16 09h24.45.839396 -0500,
,,4,4,0,,,,,,,,,,,soundfiles/NU1109_0108_talker01_SNR5.wav,soundfiles/NU1109_0108_talker01_SNR-5.wav,space,1.6016348330012988,None, ,return,1.2634350420012197,None,,,,,0,1,1,1,0,4,4,9,238.07098674999725,,,,,,,,,,,,,,,,,,,,,,,,,,,,,,,,,,,,,,,,,,,238.06566508299875,238.07098674999725,238.07098674999725,239.68343133300004,space,1.6016348330012988,None,239.687592667,239.6980099586656,243.06869649999862,243.17227566699876,243.17227566699876,244.4387969169984, ,return,1.2634350420012197,None,,,,,,,,99,2,2024-12-16_09h24.36.671,intelligibility_test,2024.2.2,122.57424346341462,2024-12-16 09h24.45.839396 -0500,
,,5,5,0,,,,,,,,,,,soundfiles/NU1109_0125_talker01_SNR5.wav,soundfiles/NU1109_0125_talker01_SNR-5.wav,space,0.6201019580003049,None, ,return,0.5985011249977106,None,,,,,0,1,1,1,0,5,5,2,244.447984041999,,,,,,,,,,,,,,,,,,,,,,,,,,,,,,,,,,,,,,,,,,,244.43893058299727,244.447984041999,244.447984041999,245.07290379199912,space,0.6201019580003049,None,245.0787719580003,245.08782649966477,248.41351737500008,248.50674549999894,248.50674549999894,249.1155778329994, ,return,0.5985011249977106,None,,,,,,,,99,2,2024-12-16_09h24.36.671,intelligibility_test,2024.2.2,122.57424346341462,2024-12-16 09h24.45.839396 -0500,
,,6,6,0,,,,,,,,,,,soundfiles/NU1109_0374_talker01_SNR5.wav,soundfiles/NU1109_0374_talker01_SNR-5.wav,space,0.4471967499994207,None, ,return,0.6806432080011291,None,,,,,0,1,1,1,0,6,6,4,249.12139529200067,,,,,,,,,,,,,,,,,,,,,,,,,,,,,,,,,,,,,,,,,,,249.11569858299845,249.12139529200067,249.12139529200067,249.57056745799855,space,0.4471967499994207,None,249.57370720799736,249.58638233366608,252.77979924999818,252.8645294579983,252.8645294579983,253.54898545799733, ,return,0.6806432080011291,None,,,,,,,,99,2,2024-12-16_09h24.36.671,intelligibility_test,2024.2.2,122.57424346341462,2024-12-16 09h24.45.839396 -0500,
,,7,7,0,,,,,,,,,,,soundfiles/NU1109_0274_talker01_SNR5.wav,soundfiles/NU1109_0274_talker01_SNR-5.wav,space,0.5832134169977508,None, ,return,0.7430380410005455,None,,,,,0,1,1,1,0,7,7,14,253.55349883300005,,,,,,,,,,,,,,,,,,,,,,,,,,,,,,,,,,,,,,,,,,,253.54911737499788,253.55349883300005,253.55349883300005,254.13882091699998,space,0.5832134169977508,None,254.14214229199933,254.15454458366392,257.6937653749992,257.8095676669982,257.8095676669982,258.5568259169995, ,return,0.7430380410005455,None,,,,,,,,99,2,2024-12-16_09h24.36.671,intelligibility_test,2024.2.2,122.57424346341462,2024-12-16 09h24.45.839396 -0500,
,,8,8,0,,,,,,,,,,,soundfiles/NU1109_0180_talker01_SNR5.wav,soundfiles/NU1109_0180_talker01_SNR-5.wav,space,0.5254598749997967,None, ,return,2.532917832999374,None,,,,,0,1,1,1,0,8,8,7,258.5641714579979,,,,,,,,,,,,,,,,,,,,,,,,,,,,,,,,,,,,,,,,,,,258.5569440830004,258.5641714579979,258.5641714579979,259.1009674579982,space,0.5254598749997967,None,259.1056927919999,259.1155999586665,262.16598616699775,262.24357858299845,262.24357858299845,264.78215458299746, ,return,2.532917832999374,None,,,,,,,,99,2,2024-12-16_09h24.36.671,intelligibility_test,2024.2.2,122.57424346341462,2024-12-16 09h24.45.839396 -0500,
,,9,9,0,,,,,,,,,,,soundfiles/NU1109_0221_talker01_SNR5.wav,soundfiles/NU1109_0221_talker01_SNR-5.wav,space,0.8468066249988624,None, ,return,1.9973924580008315,None,,,,,0,1,1,1,0,9,9,0,264.7874971249985,,,,,,,,,,,,,,,,,,,,,,,,,,,,,,,,,,,,,,,,,,,264.7822767079997,264.7874971249985,264.7874971249985,265.6386251669974,space,0.8468066249988624,None,265.6428756669993,265.6543869586642,269.06455387499955,269.1641405829978,269.1641405829978,271.1653364999984, ,return,1.9973924580008315,None,,,,,,,,99,2,2024-12-16_09h24.36.671,intelligibility_test,2024.2.2,122.57424346341462,2024-12-16 09h24.45.839396 -0500,
,,10,10,0,,,,,,,,,,,soundfiles/NU1109_0101_talker01_SNR5.wav,soundfiles/NU1109_0101_talker01_SNR-5.wav,space,0.4801656669988006,None, ,return,0.5814609580011165,None,,,,,0,1,1,1,0,10,10,8,271.17058908299805,,,,,,,,,,,,,,,,,,,,,,,,,,,,,,,,,,,,,,,,,,,271.16545974999826,271.17058908299805,271.17058908299805,271.6550357499982,space,0.4801656669988006,None,271.6580015420004,271.67077158366396,274.77219066699763,274.8595934999976,274.8595934999976,275.44832937499814, ,return,0.5814609580011165,None,,,,,,,,99,2,2024-12-16_09h24.36.671,intelligibility_test,2024.2.2,122.57424346341462,2024-12-16 09h24.45.839396 -0500,
,,11,11,0,,,,,,,,,,,soundfiles/NU1109_0248_talker01_SNR5.wav,soundfiles/NU1109_0248_talker01_SNR-5.wav,space,0.6019494579995808,None, ,return,1.8370747080007277,None,,,,,0,1,1,1,0,11,11,11,275.4545266669993,,,,,,,,,,,,,,,,,,,,,,,,,,,,,,,,,,,,,,,,,,,275.4484725420007,275.4545266669993,275.4545266669993,276.0665858749999,space,0.6019494579995808,None,276.0701082919986,276.08234783366447,279.27932583299844,279.3561269169986,279.3561269169986,281.1986979579997, ,return,1.8370747080007277,None,,,,,,,,99,2,2024-12-16_09h24.36.671,intelligibility_test,2024.2.2,122.57424346341462,2024-12-16 09h24.45.839396 -0500,
,,12,12,0,,,,,,,,,,,soundfiles/NU1109_0198_talker01_SNR5.wav,soundfiles/NU1109_0198_talker01_SNR-5.wav,space,0.8660130419993948,None, ,return,2.915883292000217,None,,,,,0,1,1,1,0,12,12,10,281.20602533299825,,,,,,,,,,,,,,,,,,,,,,,,,,,,,,,,,,,,,,,,,,,281.19883579199814,281.20602533299825,281.20602533299825,282.08306166699913,space,0.8660130419993948,None,282.0865011249989,282.0989074586653,285.1934588749973,285.27720133299954,285.27720133299954,288.19891170799747, ,return,2.915883292000217,None,,,,,,,,99,2,2024-12-16_09h24.36.671,intelligibility_test,2024.2.2,122.57424346341462,2024-12-16 09h24.45.839396 -0500,
,,13,13,0,,,,,,,,,,,soundfiles/NU1109_0285_talker01_SNR5.wav,soundfiles/NU1109_0285_talker01_SNR-5.wav,space,0.38846791700052563,None, ,return,0.23021212499952526,None,,,,,0,1,1,1,0,13,13,16,288.20353674999933,,,,,,,,,,,,,,,,,,,,,,,,,,,,,,,,,,,,,,,,,,,288.1990592919974,288.20353674999933,288.20353674999933,288.5998788750003,space,0.38846791700052563,None,288.60553858300045,288.6146821666664,292.1794962919994,292.2978023750002,292.2978023750002,292.5340073749976, ,return,0.23021212499952526,None,,,,,,,,99,2,2024-12-16_09h24.36.671,intelligibility_test,2024.2.2,122.57424346341462,2024-12-16 09h24.45.839396 -0500,
,,14,14,0,,,,,,,,,,,soundfiles/NU1109_0245_talker01_SNR5.wav,soundfiles/NU1109_0245_talker01_SNR-5.wav,space,0.2689829590017325,None, ,return,0.272002583998983,None,,,,,0,1,1,1,0,14,14,3,292.53921416699814,,,,,,,,,,,,,,,,,,,,,,,,,,,,,,,,,,,,,,,,,,,292.53413779199764,292.53921416699814,292.53921416699814,292.8167768329986,space,0.2689829590017325,None,292.820893666998,292.83137845866463,295.8010238749994,295.86538437499985,295.86538437499985,296.14864358299747, ,return,0.272002583998983,None,,,,,,,,99,2,2024-12-16_09h24.36.671,intelligibility_test,2024.2.2,122.57424346341462,2024-12-16 09h24.45.839396 -0500,
,,15,15,0,,,,,,,,,,,soundfiles/NU1109_0389_talker01_SNR5.wav,soundfiles/NU1109_0389_talker01_SNR-5.wav,space,0.42245691700009047,None, ,return,0.11429133300043759,None,,,,,0,1,1,1,0,15,15,18,296.1540892499979,,,,,,,,,,,,,,,,,,,,,,,,,,,,,,,,,,,,,,,,,,,296.148760666998,296.1540892499979,296.1540892499979,296.5819515000003,space,0.42245691700009047,None,296.5848531669981,296.5977998336641,299.9027174999974,299.99795954199726,299.99795954199726,300.11535470799936, ,return,0.11429133300043759,None,,,,,,,,99,2,2024-12-16_09h24.36.671,intelligibility_test,2024.2.2,122.57424346341462,2024-12-16 09h24.45.839396 -0500,
,,16,16,0,,,,,,,,,,,soundfiles/NU1109_0341_talker01_SNR5.wav,soundfiles/NU1109_0341_talker01_SNR-5.wav,space,0.6495304999989457,None, ,return,0.17071370800113073,None,,,,,0,1,1,1,0,16,16,15,300.11971891699795,,,,,,,,,,,,,,,,,,,,,,,,,,,,,,,,,,,,,,,,,,,300.11548279199997,300.11971891699795,300.11971891699795,300.7710950420005,space,0.6495304999989457,None,300.77417649999916,300.786981874666,304.04713841699777,304.14212229199984,304.14212229199984,304.3153862500003, ,return,0.17071370800113073,None,,,,,,,,99,2,2024-12-16_09h24.36.671,intelligibility_test,2024.2.2,122.57424346341462,2024-12-16 09h24.45.839396 -0500,
,,17,17,0,,,,,,,,,,,soundfiles/NU1109_0292_talker01_SNR5.wav,soundfiles/NU1109_0292_talker01_SNR-5.wav,space,0.4964295839999977,None, ,return,0.4542917500002659,None,,,,,0,1,1,1,0,17,17,5,304.31972470799883,,,,,,,,,,,,,,,,,,,,,,,,,,,,,,,,,,,,,,,,,,,304.3155132920001,304.31972470799883,304.31972470799883,304.82255812499716,space,0.4964295839999977,None,304.8258081669992,304.8376132086671,308.0047655419985,308.08973174999846,308.08973174999846,308.54860245799864, ,return,0.4542917500002659,None,,,,,,,,99,2,2024-12-16_09h24.36.671,intelligibility_test,2024.2.2,122.57424346341462,2024-12-16 09h24.45.839396 -0500,
,,18,18,0,,,,,,,,,,,soundfiles/NU1109_0087_talker01_SNR5.wav,soundfiles/NU1109_0087_talker01_SNR-5.wav,space,1.8069117909981287,None, ,return,0.5529077920000418,None,,,,,0,1,1,1,0,18,18,13,308.5535399170003,,,,,,,,,,,,,,,,,,,,,,,,,,,,,,,,,,,,,,,,,,,308.54874633299914,308.5535399170003,308.5535399170003,310.369081249999,space,1.8069117909981287,None,310.37449166700026,310.38324149966525,313.7893652919993,313.8808079579976,313.8808079579976,314.4402554169974, ,return,0.5529077920000418,None,,,,,,,,99,2,2024-12-16_09h24.36.671,intelligibility_test,2024.2.2,122.57424346341462,2024-12-16 09h24.45.839396 -0500,
,,19,19,0,,,,,,,,,,,soundfiles/NU1109_0365_talker01_SNR5.wav,soundfiles/NU1109_0365_talker01_SNR-5.wav,space,0.3714922500003013,None, ,return,0.3608790409998619,None,,,,,0,1,1,1,0,19,19,6,314.44766137499755,,,,,,,,,,,,,,,,,,,,,,,,,,,,,,,,,,,,,,,,,,,314.4403737920002,314.44766137499755,314.44766137499755,314.82255604199963,space,0.3714922500003013,None,314.8271305419985,314.8383636246656,318.73393179199775,318.8752812499988,318.8752812499988,319.23917320799956, ,return,0.3608790409998619,None,,,,,,,,99,2,2024-12-16_09h24.36.671,intelligibility_test,2024.2.2,122.57424346341462,2024-12-16 09h24.45.839396 -0500,
,,0,0,0,,,,,,,,,,,soundfiles/NU1109_0243_talker01_SNR5.wav,soundfiles/NU1109_0243_talker01_SNR-5.wav,space,1.6502550420009356,None, ,return,0.5606848749994242,None,,,,,0,2,2,2,0,0,0,3,379.25377149999986,,,,,,,,,,,,,,,,,,,,,,,,,,,,,,,,,,,,,,,,,379.23674695799855,379.23688879199835,379.2448204579996,379.25377149999986,379.25377149999986,380.9075467500006,space,1.6502550420009356,None,380.911723833,380.9232756666645,384.34680741699776,384.4474817499977,384.4474817499977,385.0152237080001, ,return,0.5606848749994242,None,319.24326154200025,319.25236487499933,379.2366648749994,379.25377149999986,,,,99,2,2024-12-16_09h24.36.671,intelligibility_test,2024.2.2,122.57424346341462,2024-12-16 09h24.45.839396 -0500,
,,1,1,0,,,,,,,,,,,soundfiles/NU1109_0288_talker01_SNR5.wav,soundfiles/NU1109_0288_talker01_SNR-5.wav,space,0.36108520799825783,None, ,return,0.12305999999807682,None,,,,,0,2,2,2,0,1,1,7,385.02288020799824,,,,,,,,,,,,,,,,,,,,,,,,,,,,,,,,,,,,,,,,,,,385.0153694999972,385.02288020799824,385.02288020799824,385.38732362500014,space,0.36108520799825783,None,385.39142854199963,385.4032557916655,389.4200087499994,389.57356379200064,389.57356379200064,389.69999491699855, ,return,0.12305999999807682,None,,,,,,,,99,2,2024-12-16_09h24.36.671,intelligibility_test,2024.2.2,122.57424346341462,2024-12-16 09h24.45.839396 -0500,
,,2,2,0,,,,,,,,,,,soundfiles/NU1109_0291_talker01_SNR5.wav,soundfiles/NU1109_0291_talker01_SNR-5.wav,space,0.4392846250011644,None, ,return,0.5853440829996543,None,,,,,0,2,2,2,0,2,2,9,389.704709499998,,,,,,,,,,,,,,,,,,,,,,,,,,,,,,,,,,,,,,,,,,,389.7001333749977,389.704709499998,389.704709499998,390.1496325829976,space,0.4392846250011644,None,390.1547196249994,390.16554845866654,394.08511562499916,394.2321578329975,394.2321578329975,394.8222993329982, ,return,0.5853440829996543,None,,,,,,,,99,2,2024-12-16_09h24.36.671,intelligibility_test,2024.2.2,122.57424346341462,2024-12-16 09h24.45.839396 -0500,
,,3,3,0,,,,,,,,,,,soundfiles/NU1109_0170_talker01_SNR5.wav,soundfiles/NU1109_0170_talker01_SNR-5.wav,space,0.5138563750006142,None, ,return,0.28987208399848896,None,,,,,0,2,2,2,0,3,3,13,394.83078204199774,,,,,,,,,,,,,,,,,,,,,,,,,,,,,,,,,,,,,,,,,,,394.82243754199953,394.83078204199774,394.83078204199774,395.349553707998,space,0.5138563750006142,None,395.3528433749998,395.36541208366566,398.5338410419972,398.6141629169979,398.6141629169979,398.9059107079993, ,return,0.28987208399848896,None,,,,,,,,99,2,2024-12-16_09h24.36.671,intelligibility_test,2024.2.2,122.57424346341462,2024-12-16 09h24.45.839396 -0500,
,,4,4,0,,,,,,,,,,,soundfiles/NU1109_0306_talker01_SNR5.wav,soundfiles/NU1109_0306_talker01_SNR-5.wav,space,0.4445310420014721,None, ,return,0.6447323749998759,None,,,,,0,2,2,2,0,4,4,2,398.91545395799767,,,,,,,,,,,,,,,,,,,,,,,,,,,,,,,,,,,,,,,,,,,398.90604899999744,398.91545395799767,398.91545395799767,399.36751549999826,space,0.4445310420014721,None,399.37219362500036,399.38335829166704,402.5486818749996,402.62191679199896,402.62191679199896,403.2715286669991, ,return,0.6447323749998759,None,,,,,,,,99,2,2024-12-16_09h24.36.671,intelligibility_test,2024.2.2,122.57424346341462,2024-12-16 09h24.45.839396 -0500,
,,5,5,0,,,,,,,,,,,soundfiles/NU1109_0359_talker01_SNR5.wav,soundfiles/NU1109_0359_talker01_SNR-5.wav,space,0.5111323330020241,None, ,return,1.2013722920019063,None,,,,,0,2,2,2,0,5,5,1,403.2808562499995,,,,,,,,,,,,,,,,,,,,,,,,,,,,,,,,,,,,,,,,,,,403.2716867499985,403.2808562499995,403.2808562499995,403.7998716250004,space,0.5111323330020241,None,403.8032389170003,403.8156655836649,407.2878541249993,407.39097366699934,407.39097366699934,408.5981086669999, ,return,1.2013722920019063,None,,,,,,,,99,2,2024-12-16_09h24.36.671,intelligibility_test,2024.2.2,122.57424346341462,2024-12-16 09h24.45.839396 -0500,
,,6,6,0,,,,,,,,,,,soundfiles/NU1109_0153_talker01_SNR5.wav,soundfiles/NU1109_0153_talker01_SNR-5.wav,space,0.3969022909986961,None, ,return,0.9445597499980067,None,,,,,0,2,2,2,0,6,6,14,408.6040923750006,,,,,,,,,,,,,,,,,,,,,,,,,,,,,,,,,,,,,,,,,,,408.5982179579987,408.6040923750006,408.6040923750006,409.00500095799725,space,0.3969022909986961,None,409.00869370799774,409.0207833746647,412.28862399999707,412.3745433330005,412.3745433330005,413.32178920799925, ,return,0.9445597499980067,None,,,,,,,,99,2,2024-12-16_09h24.36.671,intelligibility_test,2024.2.2,122.57424346341462,2024-12-16 09h24.45.839396 -0500,
,,7,7,0,,,,,,,,,,,soundfiles/NU1109_0163_talker01_SNR5.wav,soundfiles/NU1109_0163_talker01_SNR-5.wav,space,0.4892826659997809,None, ,return,1.0457351249970088,None,,,,,0,2,2,2,0,7,7,16,413.33085333299823,,,,,,,,,,,,,,,,,,,,,,,,,,,,,,,,,,,,,,,,,,,413.32196245799787,413.33085333299823,413.33085333299823,413.8220919999985,space,0.4892826659997809,None,413.8259270419985,413.83796712466597,417.4381849579986,417.56197879200045,417.56197879200045,418.61643374999767, ,return,1.0457351249970088,None,,,,,,,,99,2,2024-12-16_09h24.36.671,intelligibility_test,2024.2.2,122.57424346341462,2024-12-16 09h24.45.839396 -0500,
,,8,8,0,,,,,,,,,,,soundfiles/NU1109_0293_talker01_SNR5.wav,soundfiles/NU1109_0293_talker01_SNR-5.wav,space,0.4115983329975279,None, ,return,0.4280754999999772,None,,,,,0,2,2,2,0,8,8,5,418.6225012920004,,,,,,,,,,,,,,,,,,,,,,,,,,,,,,,,,,,,,,,,,,,418.61658391699893,418.6225012920004,418.6225012920004,419.03733183299846,space,0.4115983329975279,None,419.0416950830004,419.05325262466454,422.3471343329984,422.44385741699807,422.44385741699807,422.8832055419989, ,return,0.4280754999999772,None,,,,,,,,99,2,2024-12-16_09h24.36.671,intelligibility_test,2024.2.2,122.57424346341462,2024-12-16 09h24.45.839396 -0500,
,,9,9,0,,,,,,,,,,,soundfiles/NU1109_0386_talker01_SNR5.wav,soundfiles/NU1109_0386_talker01_SNR-5.wav,space,0.5183824169980653,None, ,return,0.5195604590007861,None,,,,,0,2,2,2,0,9,9,6,422.8899795420002,,,,,,,,,,,,,,,,,,,,,,,,,,,,,,,,,,,,,,,,,,,422.8833452919971,422.8899795420002,422.8899795420002,423.4174647919972,space,0.5183824169980653,None,423.42163674999756,423.4312023746645,426.683391999999,426.7659663329978,426.7659663329978,427.2889247079984, ,return,0.5195604590007861,None,,,,,,,,99,2,2024-12-16_09h24.36.671,intelligibility_test,2024.2.2,122.57424346341462,2024-12-16 09h24.45.839396 -0500,
,,10,10,0,,,,,,,,,,,soundfiles/NU1109_0376_talker01_SNR5.wav,soundfiles/NU1109_0376_talker01_SNR-5.wav,space,0.49383770900021773,None, ,return,0.018812499998603016,None,,,,,0,2,2,2,0,10,10,17,427.2973710829974,,,,,,,,,,,,,,,,,,,,,,,,,,,,,,,,,,,,,,,,,,,427.28909866699905,427.2973710829974,427.2973710829974,427.79969466699913,space,0.49383770900021773,None,427.80362524999873,427.8155621666667,431.0357343750002,431.1166040419994,431.1166040419994,431.1388233329999, ,return,0.018812499998603016,None,,,,,,,,99,2,2024-12-16_09h24.36.671,intelligibility_test,2024.2.2,122.57424346341462,2024-12-16 09h24.45.839396 -0500,
,,11,11,0,,,,,,,,,,,soundfiles/NU1109_0345_talker01_SNR5.wav,soundfiles/NU1109_0345_talker01_SNR-5.wav,space,0.5877258330001496,None, ,return,0.276990874997864,None,,,,,0,2,2,2,0,11,11,10,431.14740762499787,,,,,,,,,,,,,,,,,,,,,,,,,,,,,,,,,,,,,,,,,,,431.1389768329973,431.14740762499787,431.14740762499787,431.74103829199885,space,0.5877258330001496,None,431.74473070800013,431.7567752916659,435.1166443749971,435.21040470799926,435.21040470799926,435.4896353330005, ,return,0.276990874997864,None,,,,,,,,99,2,2024-12-16_09h24.36.671,intelligibility_test,2024.2.2,122.57424346341462,2024-12-16 09h24.45.839396 -0500,
,,12,12,0,,,,,,,,,,,soundfiles/NU1109_0216_talker01_SNR5.wav,soundfiles/NU1109_0216_talker01_SNR-5.wav,space,0.5096714589999465,None, ,return,0.2774067499994999,None,,,,,0,2,2,2,0,12,12,11,435.49759233299847,,,,,,,,,,,,,,,,,,,,,,,,,,,,,,,,,,,,,,,,,,,435.4897797079975,435.49759233299847,435.49759233299847,436.0163002499976,space,0.5096714589999465,None,436.02013129199986,436.03210358366437,439.42419125000015,439.5254246250006,439.5254246250006,439.80600245799724, ,return,0.2774067499994999,None,,,,,,,,99,2,2024-12-16_09h24.36.671,intelligibility_test,2024.2.2,122.57424346341462,2024-12-16 09h24.45.839396 -0500,
,,13,13,0,,,,,,,,,,,soundfiles/NU1109_0148_talker01_SNR5.wav,soundfiles/NU1109_0148_talker01_SNR-5.wav,space,0.7372875419969205,None, ,return,0.3882624589969055,None,,,,,0,2,2,2,0,13,13,12,439.81416929199986,,,,,,,,,,,,,,,,,,,,,,,,,,,,,,,,,,,,,,,,,,,439.806157832998,439.81416929199986,439.81416929199986,440.5577632079985,space,0.7372875419969205,None,440.56216929199945,440.57338562466634,444.1999788329995,444.3227427499987,444.3227427499987,444.7165125419997, ,return,0.3882624589969055,None,,,,,,,,99,2,2024-12-16_09h24.36.671,intelligibility_test,2024.2.2,122.57424346341462,2024-12-16 09h24.45.839396 -0500,
,,14,14,0,,,,,,,,,,,soundfiles/NU1109_0249_talker01_SNR5.wav,soundfiles/NU1109_0249_talker01_SNR-5.wav,space,0.45286666700121714,None, ,return,0.26992012499977136,None,,,,,0,2,2,2,0,14,14,0,444.7217052499982,,,,,,,,,,,,,,,,,,,,,,,,,,,,,,,,,,,,,,,,,,,444.71666141699825,444.7217052499982,444.7217052499982,445.18490720800037,space,0.45286666700121714,None,445.18858541699956,445.199063041666,448.4354682079975,448.5303397079988,448.5303397079988,448.8065506669991, ,return,0.26992012499977136,None,,,,,,,,99,2,2024-12-16_09h24.36.671,intelligibility_test,2024.2.2,122.57424346341462,2024-12-16 09h24.45.839396 -0500,
,,15,15,0,,,,,,,,,,,soundfiles/NU1109_0392_talker01_SNR5.wav,soundfiles/NU1109_0392_talker01_SNR-5.wav,space,0.49796945900016,None, ,return,0.43719916599729913,None,,,,,0,2,2,2,0,15,15,19,448.8140487919991,,,,,,,,,,,,,,,,,,,,,,,,,,,,,,,,,,,,,,,,,,,448.8066887919995,448.8140487919991,448.8140487919991,449.31664824999825,space,0.49796945900016,None,449.31989537499976,449.33223520866545,452.3771318750005,452.44878108299963,452.44878108299963,452.8928370829999, ,return,0.43719916599729913,None,,,,,,,,99,2,2024-12-16_09h24.36.671,intelligibility_test,2024.2.2,122.57424346341462,2024-12-16 09h24.45.839396 -0500,
,,16,16,0,,,,,,,,,,,soundfiles/NU1109_0244_talker01_SNR5.wav,soundfiles/NU1109_0244_talker01_SNR-5.wav,space,0.35254437500043423,None, ,return,0.10066125000230386,None,,,,,0,2,2,2,0,16,16,18,452.91544283300027,,,,,,,,,,,,,,,,,,,,,,,,,,,,,,,,,,,,,,,,,,,452.8929747919974,452.91544283300027,452.91544283300027,453.2714828749995,space,0.35254437500043423,None,453.2753302079982,453.28731812466526,456.7103735829987,456.80994324999847,456.80994324999847,456.9166886669991, ,return,0.10066125000230386,None,,,,,,,,99,2,2024-12-16_09h24.36.671,intelligibility_test,2024.2.2,122.57424346341462,2024-12-16 09h24.45.839396 -0500,
,,17,17,0,,,,,,,,,,,soundfiles/NU1109_0391_talker01_SNR5.wav,soundfiles/NU1109_0391_talker01_SNR-5.wav,space,0.4624076250001963,None, ,return,0.1265533339974354,None,,,,,0,2,2,2,0,17,17,4,456.9217900000003,,,,,,,,,,,,,,,,,,,,,,,,,,,,,,,,,,,,,,,,,,,456.9168342499979,456.9217900000003,456.9217900000003,457.38834700000007,space,0.4624076250001963,None,457.39216358299745,457.404081791665,460.9478543330006,461.0568925419975,461.0568925419975,461.1874877499977, ,return,0.1265533339974354,None,,,,,,,,99,2,2024-12-16_09h24.36.671,intelligibility_test,2024.2.2,122.57424346341462,2024-12-16 09h24.45.839396 -0500,
,,18,18,0,,,,,,,,,,,soundfiles/NU1109_0322_talker01_SNR5.wav,soundfiles/NU1109_0322_talker01_SNR-5.wav,space,0.5602053750008054,None, ,return,0.05893333299900405,None,,,,,0,2,2,2,0,18,18,15,461.19894208299957,,,,,,,,,,,,,,,,,,,,,,,,,,,,,,,,,,,,,,,,,,,461.18763299999773,461.19894208299957,461.19894208299957,461.76624312499916,space,0.5602053750008054,None,461.7703446669984,461.7820372916651,465.6431750419979,465.7806994999992,465.7806994999992,465.84849074999875, ,return,0.05893333299900405,None,,,,,,,,99,2,2024-12-16_09h24.36.671,intelligibility_test,2024.2.2,122.57424346341462,2024-12-16 09h24.45.839396 -0500,
,,19,19,0,,,,,,,,,,,soundfiles/NU1109_0121_talker01_SNR5.wav,soundfiles/NU1109_0121_talker01_SNR-5.wav,space,0.5275870000004943,None, ,return,0.21565541699965252,None,,,,,0,2,2,2,0,19,19,8,465.8559638329971,,,,,,,,,,,,,,,,,,,,,,,,,,,,,,,,,,,,,,,,,,,465.8486297499985,465.8559638329971,465.8559638329971,466.387627666998,space,0.5275870000004943,None,466.3915840829977,466.4034889166653,469.96124854200025,470.07247079199806,470.07247079199806,470.2996431249994, ,return,0.21565541699965252,None,,,,,,,,99,2,2024-12-16_09h24.36.671,intelligibility_test,2024.2.2,122.57424346341462,2024-12-16 09h24.45.839396 -0500,
,,,,,,,,,,,,,,,,,,,,,,,,,,,,,,,,,,,,,,,,,,,,,,,,,,,,,,,,,,,,,,,,,,,,,,,,,,,,,,,,,,,,,,,,,,,,,,,,470.30377074999706,,470.3037982079986,,470.3038171249973,470.3195982500001,480.3049898329991,99,2,2024-12-16_09h24.36.671,intelligibility_test,2024.2.2,122.57424346341462,2024-12-16 09h24.45.839396 -0500,
